{
  "resourceType": "Bundle",
  "id": "31f3da3b-ef97-4f1b-8361-8443f1cf303c",
  "meta": {
    "profile": [
      "https://interoperabilidad.minsal.cl/fhir/ig/tei/StructureDefinition/BundleIniciarLE"
    ]
  },
  "type": "message",
  "timestamp": "2025-04-17T16:20:23-04:00",
  "entry": [
    {
      "fullUrl": "/MessageHeader/6aabe975-92ea-49cc-9837-f48d64e0dad3",
      "resource": {
        "resourceType": "MessageHeader",
        "id": "6aabe975-92ea-49cc-9837-f48d64e0dad3",
        "meta": {
          "lastUpdated": "2025-04-17T16:20:23-04:00",
          "profile": [
            "https://interoperabilidad.minsal.cl/fhir/ig/tei/StructureDefinition/MessageHeaderLE"
          ]
        },
        "eventCoding": {
          "system": "https://interoperabilidad.minsal.cl/fhir/ig/tei/CodeSystem/CSTipoEventoLE",
          "code": "iniciar"
        },
        "author": {
          "reference": "PractitionerRole/cfa6849c-1bc6-4123-9313-665a2ad6a274"
        },
        "source": {
          "software": "RAYEN",
          "endpoint": "172.16.0.207"
        },
        "focus": [
          {
            "reference": "ServiceRequest/91f45eca-0322-4808-ac17-dc4167d92404"
          }
        ]
      }
    },
    {
      "fullUrl": "/ServiceRequest/91f45eca-0322-4808-ac17-dc4167d92404",
      "resource": {
        "resourceType": "ServiceRequest",
        "id": "91f45eca-0322-4808-ac17-dc4167d92404",
        "meta": {
          "profile": [
            "https://interoperabilidad.minsal.cl/fhir/ig/tei/StructureDefinition/ServiceRequestLE"
          ]
        },
        "extension": [
          {
            "url": "https://interoperabilidad.minsal.cl/fhir/ig/tei/StructureDefinition/ExtensionBoolResolutividadAPS",
            "valueBoolean": false
          },
          {
            "url": "https://interoperabilidad.minsal.cl/fhir/ig/tei/StructureDefinition/ExtensionOrigenInterconsulta",
            "valueCodeableConcept": {
              "coding": [
                {
                  "system": "https://interoperabilidad.minsal.cl/fhir/ig/tei/CodeSystem/CSorigenInterconsulta",
                  "code": "1",
                  "display": "APS"
                }
              ]
            }
          },
          {
            "url": "https://interoperabilidad.minsal.cl/fhir/ig/tei/StructureDefinition/ExtensionEstadoInterconsultaCodigoLE",
            "valueCodeableConcept": {
              "coding": [
                {
                  "system": "https://interoperabilidad.minsal.cl/fhir/ig/tei/CodeSystem/CSEstadoInterconsulta",
                  "code": "1",
                  "display": "A la espera de referencia"
                }
              ]
            }
          },
          {
            "url": "https://interoperabilidad.minsal.cl/fhir/StructureDefinition/TargetOrganization",
            "valueReference": {
              "reference": "Organization/64eaa58f-af27-45d0-a356-12a4fb46bd54"
            }
          },
          {
            "url": "https://interoperabilidad.minsal.cl/fhir/ig/tei/StructureDefinition/ExtensionEspecialidadMedicaDestinoCodigo",
            "valueCodeableConcept": {
              "coding": [
                {
                  "system": "https://interoperabilidad.minsal.cl/fhir/ig/tei/CodeSystem/CSEspecialidadMed",
                  "code": "3"
                }
              ]
            }
          }
        ],
        "identifier": [
          {
            "system": "http://minsal.cl/MINSAL",
            "value": "e9d3bbfa-b2d6-4238-8bb1-96d36ebaba8c"
          },
          {
            "system": "http://minsal.cl/RAYEN",
            "value": "13694385"
          }
        ],
        "status": "draft",
        "intent": "order",
        "category": [
          {
            "coding": [
              {
                "system": "https://interoperabilidad.minsal.cl/fhir/ig/tei/CodeSystem/CSModalidadAtencionCodigo",
                "code": "1",
                "display": "Presencial"
              }
            ]
          }
        ],
        "priority": "routine",
        "code": {
          "coding": [
            {
              "system": "http://snomed.info/sct",
              "code": "103696004"
            }
          ],
          "text": "Derivación del paciente a un especialista"
        },
        "subject": {
          "reference": "Patient/AC1744653367874"
        },
        "encounter": {
          "reference": "Encounter/01881e63-eb5f-4429-8542-ac80530005d0"
        },
        "authoredOn": "2025-04-14T14:50:00-04:00",
        "requester": {
          "reference": "PractitionerRole/153e2175-a2be-46f6-ae44-29bd388a746a"
        },
        "performer": [
          {
            "reference": "PractitionerRole/c3f5d49b-ba56-4628-a05b-a387cddcd0e0"
          }
        ],
        "locationCode": [
          {
            "coding": [
              {
                "system": "https://interoperabilidad.minsal.cl/fhir/ig/tei/CodeSystem/CSDestinoReferenciaCodigo",
                "code": "1",
                "display": "Nivel Secundario"
              }
            ]
          }
        ],
        "reasonCode": [
          {
            "coding": [
              {
                "system": "https://interoperabilidad.minsal.cl/fhir/ig/tei/CodeSystem/CSDerivadoParaCodigo",
                "code": "3",
                "display": "Realiza Tratamiento"
              }
            ]
          }
        ],
        "supportingInfo": [
          {
            "reference": "Condition/2a73a3b3-c9cb-4c8c-9ec1-e790f04cf10c"
          },
          {
            "reference": "Observation/b0cf253f-00e4-46cb-ae3c-3ee1a4f02f6b"
          },
          {
            "reference": "Observation/06a21c25-4145-4bb0-b30c-457049240249"
          },
          {
            "reference": "QuestionnaireResponse/dcbbc7f1-5d68-4f3e-9967-bc9df662341a"
          }
        ]
      }
    },
    {
      "fullUrl": "/Encounter/01881e63-eb5f-4429-8542-ac80530005d0",
      "resource": {
        "resourceType": "Encounter",
        "id": "01881e63-eb5f-4429-8542-ac80530005d0",
        "meta": {
          "profile": [
            "https://interoperabilidad.minsal.cl/fhir/ig/tei/StructureDefinition/EncounterIniciarLE"
          ]
        },
        "extension": [
          {
            "url": "https://interoperabilidad.minsal.cl/fhir/ig/tei/StructureDefinition/ExtensionConsecuenciaAtencionCodigo",
            "valueCodeableConcept": {
              "coding": [
                {
                  "system": "https://interoperabilidad.minsal.cl/fhir/ig/tei/CodeSystem/CSConsecuenciaAtencionCodigo",
                  "code": "3",
                  "display": "Derivación"
                }
              ]
            }
          }
        ],
        "identifier": [
          {
            "use": "official",
            "value": ""
          }
        ],
        "status": "finished",
        "class": {
          "system": "https://interoperabilidad.minsal.cl/fhir/ig/tei/CodeSystem/CSModalidadAtencionCodigo",
          "code": "1",
          "display": "Presencial"
        },
        "subject": {
          "reference": "Patient/AC1744653367874"
        },
        "participant": [
          {
            "individual": {
              "reference": "PractitionerRole/cfa6849c-1bc6-4123-9313-665a2ad6a274"
            }
          }
        ],
        "period": {
          "start": "2025-04-17T16:15:20-04:00",
          "end": "2025-04-17T16:20:37-04:00"
        },
        "diagnosis": [
          {
            "condition": {
              "reference": "Condition/2a73a3b3-c9cb-4c8c-9ec1-e790f04cf10c"
            },
            "rank": 1
          }
        ]
      }
    },
    {
      "fullUrl": "/Patient/AC1744653367874",
      "resource": {
        "resourceType": "Patient",
        "id": "AC1744653367874",
        "meta": {
          "profile": [
            "https://interoperabilidad.minsal.cl/fhir/ig/tei/StructureDefinition/PatientLE"
          ]
        },
        "extension": [
          {
            "url": "https://hl7chile.cl/fhir/ig/clcore/StructureDefinition/IdentidadDeGenero",
            "valueCodeableConcept": {
              "coding": [
                {
                  "system": "https://hl7chile.cl/fhir/ig/clcore/CodeSystem/CSIdentidaddeGenero",
                  "code": "7",
                  "display": "No Revelado"
                }
              ]
            }
          },
          {
            "url": "https://hl7chile.cl/fhir/ig/clcore/StructureDefinition/CodigoPaises",
            "valueCodeableConcept": {
              "coding": [
                {
                  "system": "https://hl7chile.cl/fhir/ig/clcore/CodeSystem/CodPais",
                  "code": "152",
                  "display": "Chile"
                }
              ]
            }
          },
          {
            "url": "https://interoperabilidad.minsal.cl/fhir/ig/tei/StructureDefinition/PaisOrigenMPI",
            "valueCodeableConcept": {
              "coding": [
                {
                  "system": "https://hl7chile.cl/fhir/ig/clcore/CodeSystem/CodPais",
                  "code": "152",
                  "display": "Chile"
                }
              ]
            }
          },
          {
            "url": "https://interoperabilidad.minsal.cl/fhir/ig/tei/StructureDefinition/PueblosOriginariosPerteneciente",
            "valueBoolean": false
          },
          {
            "url": "https://interoperabilidad.minsal.cl/fhir/ig/tei/StructureDefinition/PueblosAfrodescendiente",
            "valueBoolean": false
          }
        ],
        "identifier": [
          {
            "use": "official",
            "type": {
              "extension": [
                {
                  "url": "https://hl7chile.cl/fhir/ig/clcore/StructureDefinition/CodigoPaises",
                  "valueCodeableConcept": {
                    "coding": [
                      {
                        "system": "https://hl7chile.cl/fhir/ig/clcore/CodeSystem/CodPais",
                        "code": "152",
                        "display": "Chile"
                      }
                    ]
                  }
                }
              ],
              "coding": [
                {
                  "system": "https://hl7chile.cl/fhir/ig/clcore/CodeSystem/CSTipoIdentificador",
                  "code": "01",
                  "display": "RUN"
                }
              ],
              "text": "Rol Único Nacional"
            },
            "value": "9640474-3",
            "assigner": {
              "display": "Republica de Chile"
            }
          }
        ],
        "active": true,
        "name": [
          {
            "use": "official",
            "family": "Pardo",
            "_family": {
              "extension": [
                {
                  "url": "https://hl7chile.cl/fhir/ig/clcore/StructureDefinition/SegundoApellido",
                  "valueString": "Cabrera"
                }
              ]
            },
            "given": ["Marisol"]
          }
        ],
        "telecom": [
          {
            "system": "phone",
            "value": "976525639",
            "use": "mobile",
            "rank": 1
          },
          {
            "system": "phone",
            "value": "226034977",
            "use": "home",
            "rank": 2
          }
        ],
        "gender": "female",
        "birthDate": "1961-05-25",
        "deceasedBoolean": false,
        "address": [
          {
            "use": "home",
            "text": "JUAN MARTINES DE ROSAS,785",
            "line": ["JUAN MARTINES DE ROSAS,785"],
            "city": "Chillán Viejo",
            "_city": {
              "extension": [
                {
                  "url": "https://hl7chile.cl/fhir/ig/clcore/StructureDefinition/ComunasCl",
                  "valueCodeableConcept": {
                    "coding": [
                      {
                        "system": "https://hl7chile.cl/fhir/ig/clcore/CodeSystem/CSCodComunasCL",
                        "code": "16103",
                        "display": "Chillán Viejo"
                      }
                    ]
                  }
                }
              ]
            },
            "district": "Diguillín",
            "_district": {
              "extension": [
                {
                  "url": "https://hl7chile.cl/fhir/ig/clcore/StructureDefinition/ProvinciasCl",
                  "valueCodeableConcept": {
                    "coding": [
                      {
                        "system": "https://hl7chile.cl/fhir/ig/clcore/CodeSystem/CSCodProvinciasCL",
                        "code": "161",
                        "display": "Diguillín"
                      }
                    ]
                  }
                }
              ]
            },
            "state": "Ñuble",
            "_state": {
              "extension": [
                {
                  "url": "https://hl7chile.cl/fhir/ig/clcore/StructureDefinition/RegionesCl",
                  "valueCodeableConcept": {
                    "coding": [
                      {
                        "system": "https://hl7chile.cl/fhir/ig/clcore/CodeSystem/CSCodRegionCL",
                        "code": "16",
                        "display": "Ñuble"
                      }
                    ]
                  }
                }
              ]
            }
          }
        ]
      }
    },
    {
      "fullUrl": "/Condition/2a73a3b3-c9cb-4c8c-9ec1-e790f04cf10c",
      "resource": {
        "resourceType": "Condition",
        "id": "2a73a3b3-c9cb-4c8c-9ec1-e790f04cf10c",
        "meta": {
          "profile": [
            "https://interoperabilidad.minsal.cl/fhir/ig/tei/StructureDefinition/ConditionDiagnosticoLE"
          ]
        },
        "clinicalStatus": {
          "coding": [
            {
              "system": "http://terminology.hl7.org/CodeSystem/condition-clinical",
              "code": "active",
              "display": "Active"
            }
          ],
          "text": "Activo"
        },
        "verificationStatus": {
          "coding": [
            {
              "system": "http://terminology.hl7.org/CodeSystem/condition-ver-status",
              "code": "provisional",
              "display": "provisional"
            }
          ],
          "text": "provisional"
        },
        "category": [
          {
            "coding": [
              {
                "system": "http://terminology.hl7.org/CodeSystem/condition-category",
                "code": "encounter-diagnosis",
                "display": "Encounter Diagnosis"
              }
            ],
            "text": "Diagnostico del encuentro"
          }
        ],
        "code": {
          "coding": [
            {
              "system": "http://hl7.org/fhir/sid/icd-10",
              "code": "I49",
              "display": "Otras arritmias cardíacas"
            }
          ],
          "text": "Otras arritmias cardíacas"
        },
        "subject": {
          "reference": "Patient/AC1744653367874"
        },
        "encounter": {
          "reference": "Encounter/01881e63-eb5f-4429-8542-ac80530005d0"
        }
      }
    },
    {
      "fullUrl": "/Observation/06a21c25-4145-4bb0-b30c-457049240249",
      "resource": {
        "resourceType": "Observation",
        "id": "06a21c25-4145-4bb0-b30c-457049240249",
        "meta": {
          "profile": [
            "https://interoperabilidad.minsal.cl/fhir/ig/tei/StructureDefinition/ObservationDiscapacidadLE"
          ]
        },
        "status": "final",
        "code": {
          "coding": [
            {
              "system": "http://loinc.org",
              "code": "101720-1",
              "display": "Disability status"
            }
          ],
          "text": "Discapacidad"
        },
        "subject": {
          "reference": "Patient/AC1744653367874"
        },
        "valueBoolean": false
      }
    },
    {
      "fullUrl": "/Observation/b0cf253f-00e4-46cb-ae3c-3ee1a4f02f6b",
      "resource": {
        "resourceType": "Observation",
        "id": "b0cf253f-00e4-46cb-ae3c-3ee1a4f02f6b",
        "meta": {
          "profile": [
            "https://interoperabilidad.minsal.cl/fhir/ig/tei/StructureDefinition/ObservationIniciarCuidadorLE"
          ]
        },
        "status": "final",
        "code": {
          "coding": [
            {
              "system": "http://loinc.org",
              "code": "95385-1",
              "display": "Caregiver for person with age-related complaints, chronic diseases or frailty"
            }
          ],
          "text": "Cuidador de una persona con dolencias relacionadas con la edad o enfermedades crónicas."
        },
        "subject": {
          "reference": "Patient/AC1744653367874"
        },
        "valueBoolean": false
      }
    },
    {
      "fullUrl": "/PractitionerRole/153e2175-a2be-46f6-ae44-29bd388a746a",
      "resource": {
        "resourceType": "PractitionerRole",
        "id": "153e2175-a2be-46f6-ae44-29bd388a746a",
        "meta": {
          "profile": [
            "https://interoperabilidad.minsal.cl/fhir/ig/tei/StructureDefinition/PractitionerRoleLE"
          ]
        },
        "identifier": [
          {
            "system": "http://rnpi.supersalud.cl/practitioners",
            "value": "1"
          }
        ],
        "active": true,
        "practitioner": {
          "reference": "Practitioner/f75ea2f4-8d62-486e-90d5-dcc1df4731bb"
        },
        "organization": {
          "reference": "Organization/2010e621-a726-49f5-9a28-ba9b9a39cbf1"
        },
        "code": [
          {
            "coding": [
              {
                "system": "https://interoperabilidad.minsal.cl/fhir/ig/tei/CodeSystem/CSPractitionerTipoRolLE",
                "code": "iniciador",
                "display": "Iniciador"
              }
            ]
          }
        ]
      }
    },
    {
      "fullUrl": "/Practitioner/f75ea2f4-8d62-486e-90d5-dcc1df4731bb",
      "resource": {
        "resourceType": "Practitioner",
        "id": "f75ea2f4-8d62-486e-90d5-dcc1df4731bb",
        "meta": {
          "profile": [
            "https://interoperabilidad.minsal.cl/fhir/ig/tei/StructureDefinition/PractitionerProfesionalLE"
          ]
        },
        "identifier": [
          {
            "use": "official",
            "type": {
              "coding": [
                {
                  "system": "https://hl7chile.cl/fhir/ig/clcore/CodeSystem/CSTipoIdentificador",
                  "code": "01",
                  "display": "RUN"
                }
              ],
              "text": "Rol Único Nacional"
            },
            "value": "18691581-k",
            "assigner": {
              "display": "Republica de Chile"
            }
          }
        ],
        "active": true,
        "name": [
          {
            "family": "Tapia",
            "_family": {
              "extension": [
                {
                  "url": "https://hl7chile.cl/fhir/ig/clcore/StructureDefinition/SegundoApellido",
                  "valueString": "Tapia"
                }
              ]
            },
            "given": ["David Alfonso"],
            "prefix": ["Dr"]
          }
        ],
        "birthDate": "2000-01-08",
        "qualification": [
          {
            "identifier": [
              {
                "value": "cert"
              }
            ],
            "code": {
              "coding": [
                {
                  "system": "https://interoperabilidad.minsal.cl/fhir/ig/tei/CodeSystem/CSTituloProfesional",
                  "code": "1",
                  "display": "MÉDICO CIRUJANO"
                }
              ],
              "text": "MÉDICO CIRUJANO"
            }
          }
        ]
      }
    },
    {
      "fullUrl": "/Organization/64eaa58f-af27-45d0-a356-12a4fb46bd54",
      "resource": {
        "resourceType": "Organization",
        "id": "64eaa58f-af27-45d0-a356-12a4fb46bd54",
        "meta": {
          "profile": [
            "https://interoperabilidad.minsal.cl/fhir/ig/tei/StructureDefinition/OrganizationLE"
          ]
        },
        "identifier": [
          {
            "system": "https://interoperabilidad.minsal.cl/fhir/ig/tei/CodeSystem/CSEstablecimientoDestino",
            "value": "117101"
          }
        ],
        "name": "Herminda Martin [HT1]",
        "alias": ["Herminda Martin [HT1]"]
      }
    },
    {
      "fullUrl": "/Organization/2010e621-a726-49f5-9a28-ba9b9a39cbf1",
      "resource": {
        "resourceType": "Organization",
        "id": "2010e621-a726-49f5-9a28-ba9b9a39cbf1",
        "meta": {
          "profile": [
            "https://interoperabilidad.minsal.cl/fhir/ig/tei/StructureDefinition/OrganizationLE"
          ]
        },
        "identifier": [
          {
            "system": "https://interoperabilidad.minsal.cl/fhir/ig/tei/CodeSystem/CSEstablecimientoDestino",
            "value": "117328"
          }
        ],
        "name": "Federico Puga Borne [CSF]",
        "alias": ["Federico Puga Borne [CSF]"]
      }
    },
    {
      "fullUrl": "/QuestionnaireResponse/dcbbc7f1-5d68-4f3e-9967-bc9df662341a",
      "resource": {
        "resourceType": "QuestionnaireResponse",
        "id": "dcbbc7f1-5d68-4f3e-9967-bc9df662341a",
        "meta": {
          "profile": [
            "https://interoperabilidad.minsal.cl/fhir/ig/tei/StructureDefinition/QuestionnaireResponseIniciarLE"
          ]
        },
        "questionnaire": "https://interoperabilidad.minsal.cl/fhir/ig/tei/Questionnaire/MotivoDerivacion",
        "status": "completed",
        "subject": {
          "reference": "Patient/AC1744653367874"
        },
        "encounter": {
          "reference": "Encounter/01881e63-eb5f-4429-8542-ac80530005d0"
        },
        "author": {
          "reference": "Practitioner/f75ea2f4-8d62-486e-90d5-dcc1df4731bb"
        },
        "item": [
          {
            "linkId": "MotivoDerivacion",
            "text": "Motivo Derivación",
            "answer": [
              {
                "valueString": " - OTRAS ARRITMIAS CARDÍACAS;Otras arritmias cardíacas\n\n\n Prueba estado de integración 04"
              }
            ]
          }
        ]
      }
    }
  ]
}
